
# Data      [ Total No. = 4001 ]
  <2Theta>   <   I   >
    10.0000        18
    10.0200        24
    10.0400        12
    10.0600        16
    10.0800        14
    10.1000        16
    10.1200        16
    10.1400        12
    10.1600        24
    10.1800        16
    10.2000        12
    10.2200        18
    10.2400        22
    10.2600        10
    10.2800        18
    10.3000        18
    10.3200        20
    10.3400        14
    10.3600        20
    10.3800        18
    10.4000        22
    10.4200        18
    10.4400        18
    10.4600        14
    10.4800        18
    10.5000        22
    10.5200        22
    10.5400        12
    10.5600        20
    10.5800        16
    10.6000        14
    10.6200        14
    10.6400        18
    10.6600        16
    10.6800        14
    10.7000        18
    10.7200        24
    10.7400        22
    10.7600        18
    10.7800        24
    10.8000        14
    10.8200        16
    10.8400        20
    10.8600        12
    10.8800        18
    10.9000        14
    10.9200        18
    10.9400        16
    10.9600        20
    10.9800        16
    11.0000        20
    11.0200        18
    11.0400         8
    11.0600        18
    11.0800        12
    11.1000        18
    11.1200        22
    11.1400        12
    11.1600        22
    11.1800        18
    11.2000        16
    11.2200        30
    11.2400        18
    11.2600        16
    11.2800         8
    11.3000        20
    11.3200        16
    11.3400        18
    11.3600        16
    11.3800        18
    11.4000        16
    11.4200        18
    11.4400        10
    11.4600        18
    11.4800        20
    11.5000        16
    11.5200        14
    11.5400        14
    11.5600        20
    11.5800        26
    11.6000        12
    11.6200        20
    11.6400        20
    11.6600        16
    11.6800        24
    11.7000        18
    11.7200         8
    11.7400        14
    11.7600        12
    11.7800        20
    11.8000        16
    11.8200        16
    11.8400        20
    11.8600        20
    11.8800        16
    11.9000        12
    11.9200        12
    11.9400        12
    11.9600        22
    11.9800        14
    12.0000        16
    12.0200         8
    12.0400        10
    12.0600        18
    12.0800        16
    12.1000        10
    12.1200        12
    12.1400        24
    12.1600        16
    12.1800        12
    12.2000        14
    12.2200        24
    12.2400        18
    12.2600        16
    12.2800        20
    12.3000        20
    12.3200        12
    12.3400        16
    12.3600        16
    12.3800        22
    12.4000        10
    12.4200        20
    12.4400        14
    12.4600        14
    12.4800        12
    12.5000        18
    12.5200        18
    12.5400        18
    12.5600        22
    12.5800        16
    12.6000        18
    12.6200        16
    12.6400        20
    12.6600        12
    12.6800        18
    12.7000        14
    12.7200        18
    12.7400        14
    12.7600        16
    12.7800        10
    12.8000        16
    12.8200        14
    12.8400        12
    12.8600        12
    12.8800        14
    12.9000        12
    12.9200        10
    12.9400        14
    12.9600        18
    12.9800        12
    13.0000        10
    13.0200        14
    13.0400        16
    13.0600        14
    13.0800        12
    13.1000        12
    13.1200        12
    13.1400        16
    13.1600        16
    13.1800        22
    13.2000        16
    13.2200        22
    13.2400        20
    13.2600         6
    13.2800         8
    13.3000        16
    13.3200        12
    13.3400        20
    13.3600        14
    13.3800        14
    13.4000        20
    13.4200        16
    13.4400        10
    13.4600        16
    13.4800        22
    13.5000        14
    13.5200        22
    13.5400        24
    13.5600        14
    13.5800        16
    13.6000        18
    13.6200        12
    13.6400        22
    13.6600        22
    13.6800        10
    13.7000        14
    13.7200        18
    13.7400        10
    13.7600        12
    13.7800        14
    13.8000        16
    13.8200        22
    13.8400        10
    13.8600        16
    13.8800        14
    13.9000        14
    13.9200        18
    13.9400        16
    13.9600        18
    13.9800        16
    14.0000        10
    14.0200        10
    14.0400        10
    14.0600        14
    14.0800        18
    14.1000        14
    14.1200        14
    14.1400         8
    14.1600        10
    14.1800        16
    14.2000        16
    14.2200        12
    14.2400        22
    14.2600        12
    14.2800        18
    14.3000        12
    14.3200        14
    14.3400        10
    14.3600        14
    14.3800        22
    14.4000        20
    14.4200        16
    14.4400        14
    14.4600        14
    14.4800        12
    14.5000        20
    14.5200        18
    14.5400        14
    14.5600        10
    14.5800        12
    14.6000        18
    14.6200        18
    14.6400        12
    14.6600        18
    14.6800        12
    14.7000        20
    14.7200        12
    14.7400        12
    14.7600        14
    14.7800         8
    14.8000        12
    14.8200         8
    14.8400        12
    14.8600        10
    14.8800        12
    14.9000        16
    14.9200        10
    14.9400        14
    14.9600         8
    14.9800        16
    15.0000        16
    15.0200        18
    15.0400        10
    15.0600        18
    15.0800        16
    15.1000        10
    15.1200        12
    15.1400        20
    15.1600        20
    15.1800        10
    15.2000        18
    15.2200        12
    15.2400         6
    15.2600        18
    15.2800        16
    15.3000        18
    15.3200        16
    15.3400         8
    15.3600        14
    15.3800        18
    15.4000        20
    15.4200        10
    15.4400        14
    15.4600        10
    15.4800        12
    15.5000        10
    15.5200        18
    15.5400        18
    15.5600        14
    15.5800        16
    15.6000        14
    15.6200        18
    15.6400        16
    15.6600        12
    15.6800        20
    15.7000        10
    15.7200        10
    15.7400        20
    15.7600        12
    15.7800        10
    15.8000        14
    15.8200        18
    15.8400        18
    15.8600        16
    15.8800        12
    15.9000        16
    15.9200        14
    15.9400        14
    15.9600        16
    15.9800        16
    16.0000        12
    16.0200        14
    16.0400        18
    16.0600        14
    16.0800        16
    16.1000        16
    16.1200        10
    16.1400        12
    16.1600        12
    16.1800        10
    16.2000        14
    16.2200        18
    16.2400         8
    16.2600        14
    16.2800        16
    16.3000         8
    16.3200        20
    16.3400        14
    16.3600        16
    16.3800         4
    16.4000        12
    16.4200        10
    16.4400        16
    16.4600        10
    16.4800        10
    16.5000        18
    16.5200        16
    16.5400        12
    16.5600        18
    16.5800        16
    16.6000        10
    16.6200        14
    16.6400        14
    16.6600        16
    16.6800        10
    16.7000        12
    16.7200        12
    16.7400        10
    16.7600        12
    16.7800        14
    16.8000        14
    16.8200        16
    16.8400        20
    16.8600        12
    16.8800        16
    16.9000        16
    16.9200        12
    16.9400        16
    16.9600        18
    16.9800        14
    17.0000        10
    17.0200        10
    17.0400        12
    17.0600        14
    17.0800        10
    17.1000        12
    17.1200        16
    17.1400        10
    17.1600        20
    17.1800        14
    17.2000        12
    17.2200        18
    17.2400        12
    17.2600        14
    17.2800        10
    17.3000         6
    17.3200        16
    17.3400        14
    17.3600        18
    17.3800        10
    17.4000        14
    17.4200        24
    17.4400        14
    17.4600        14
    17.4800        14
    17.5000        18
    17.5200        16
    17.5400        16
    17.5600        14
    17.5800        12
    17.6000        12
    17.6200        10
    17.6400        14
    17.6600        12
    17.6800        18
    17.7000        10
    17.7200        12
    17.7400        20
    17.7600        16
    17.7800        16
    17.8000         8
    17.8200        16
    17.8400        12
    17.8600        14
    17.8800        16
    17.9000         8
    17.9200        16
    17.9400        12
    17.9600        12
    17.9800        22
    18.0000         8
    18.0200        14
    18.0400        10
    18.0600        10
    18.0800         2
    18.1000        20
    18.1200        16
    18.1400        14
    18.1600        12
    18.1800        16
    18.2000        14
    18.2200         8
    18.2400        20
    18.2600        10
    18.2800        20
    18.3000        14
    18.3200        22
    18.3400        14
    18.3600        18
    18.3800        10
    18.4000        16
    18.4200        22
    18.4400        12
    18.4600        12
    18.4800        10
    18.5000        10
    18.5200         8
    18.5400        12
    18.5600        16
    18.5800        16
    18.6000        10
    18.6200        10
    18.6400        16
    18.6600        12
    18.6800        24
    18.7000        18
    18.7200        14
    18.7400        14
    18.7600        18
    18.7800        22
    18.8000        16
    18.8200        14
    18.8400        20
    18.8600        12
    18.8800        12
    18.9000        18
    18.9200        20
    18.9400        16
    18.9600        14
    18.9800        14
    19.0000        18
    19.0200        14
    19.0400        10
    19.0600        22
    19.0800        22
    19.1000        18
    19.1200        20
    19.1400        22
    19.1600        20
    19.1800        14
    19.2000        24
    19.2200        16
    19.2400        26
    19.2600        24
    19.2800        20
    19.3000        32
    19.3200        12
    19.3400        16
    19.3600        20
    19.3800        24
    19.4000        26
    19.4200        20
    19.4400        22
    19.4600        16
    19.4800        18
    19.5000        16
    19.5200        14
    19.5400        22
    19.5600        16
    19.5800        20
    19.6000        20
    19.6200        20
    19.6400        14
    19.6600        14
    19.6800        22
    19.7000        20
    19.7200        18
    19.7400        12
    19.7600        10
    19.7800        18
    19.8000        12
    19.8200        10
    19.8400        20
    19.8600        18
    19.8800        14
    19.9000        20
    19.9200        10
    19.9400        14
    19.9600        10
    19.9800        12
    20.0000        16
    20.0200        14
    20.0400        12
    20.0600        18
    20.0800        16
    20.1000        10
    20.1200        12
    20.1400        14
    20.1600        20
    20.1800        12
    20.2000        18
    20.2200        14
    20.2400        14
    20.2600        12
    20.2800        16
    20.3000        22
    20.3200        28
    20.3400        14
    20.3600        16
    20.3800        14
    20.4000        10
    20.4200        14
    20.4400        14
    20.4600        12
    20.4800        14
    20.5000        16
    20.5200        20
    20.5400        12
    20.5600         8
    20.5800        14
    20.6000        14
    20.6200        14
    20.6400        14
    20.6600        16
    20.6800        16
    20.7000        12
    20.7200         6
    20.7400        12
    20.7600        14
    20.7800        16
    20.8000         8
    20.8200        10
    20.8400        14
    20.8600        12
    20.8800        14
    20.9000        22
    20.9200        10
    20.9400        14
    20.9600        20
    20.9800         8
    21.0000        18
    21.0200        18
    21.0400        12
    21.0600        20
    21.0800        12
    21.1000        12
    21.1200        20
    21.1400        16
    21.1600        28
    21.1800        18
    21.2000        16
    21.2200        20
    21.2400        12
    21.2600        18
    21.2800        10
    21.3000        18
    21.3200        20
    21.3400        10
    21.3600        16
    21.3800         8
    21.4000        16
    21.4200        20
    21.4400        12
    21.4600        14
    21.4800        10
    21.5000        18
    21.5200        16
    21.5400         6
    21.5600        14
    21.5800        14
    21.6000        16
    21.6200        10
    21.6400        18
    21.6600        14
    21.6800        22
    21.7000        12
    21.7200        12
    21.7400        14
    21.7600        20
    21.7800         8
    21.8000        10
    21.8200        14
    21.8400        12
    21.8600        10
    21.8800        14
    21.9000        10
    21.9200        22
    21.9400        12
    21.9600        20
    21.9800        20
    22.0000        10
    22.0200        28
    22.0400        16
    22.0600        14
    22.0800        18
    22.1000        14
    22.1200        16
    22.1400        12
    22.1600        18
    22.1800        18
    22.2000        14
    22.2200        20
    22.2400        10
    22.2600        12
    22.2800        14
    22.3000        12
    22.3200        14
    22.3400        10
    22.3600        20
    22.3800        10
    22.4000        12
    22.4200        20
    22.4400        12
    22.4600         8
    22.4800        20
    22.5000        20
    22.5200        24
    22.5400        18
    22.5600        14
    22.5800        14
    22.6000        10
    22.6200         8
    22.6400         8
    22.6600        12
    22.6800        16
    22.7000        16
    22.7200        12
    22.7400        12
    22.7600        12
    22.7800        16
    22.8000         8
    22.8200        12
    22.8400         6
    22.8600        10
    22.8800        20
    22.9000        14
    22.9200        16
    22.9400        10
    22.9600        18
    22.9800         8
    23.0000        18
    23.0200        22
    23.0400        14
    23.0600        22
    23.0800        10
    23.1000        18
    23.1200        14
    23.1400        20
    23.1600        16
    23.1800        18
    23.2000        20
    23.2200        16
    23.2400        22
    23.2600        12
    23.2800        16
    23.3000        12
    23.3200        12
    23.3400        14
    23.3600        12
    23.3800        18
    23.4000        14
    23.4200        14
    23.4400        12
    23.4600        12
    23.4800        16
    23.5000        10
    23.5200        18
    23.5400         8
    23.5600        12
    23.5800        18
    23.6000        14
    23.6200        10
    23.6400         6
    23.6600        16
    23.6800         8
    23.7000        18
    23.7200        12
    23.7400        12
    23.7600         8
    23.7800        12
    23.8000        18
    23.8200        12
    23.8400        18
    23.8600        20
    23.8800        16
    23.9000        20
    23.9200        16
    23.9400        10
    23.9600        10
    23.9800         8
    24.0000         2
    24.0200        18
    24.0400         6
    24.0600        18
    24.0800        10
    24.1000        16
    24.1200         6
    24.1400         8
    24.1600         6
    24.1800        14
    24.2000        14
    24.2200        20
    24.2400         8
    24.2600        12
    24.2800        16
    24.3000        10
    24.3200        18
    24.3400         8
    24.3600        14
    24.3800        12
    24.4000        14
    24.4200        12
    24.4400        14
    24.4600        10
    24.4800        10
    24.5000        16
    24.5200        12
    24.5400        14
    24.5600        14
    24.5800        10
    24.6000         8
    24.6200        20
    24.6400        10
    24.6600        16
    24.6800        14
    24.7000        14
    24.7200         6
    24.7400        14
    24.7600         6
    24.7800        14
    24.8000        12
    24.8200        14
    24.8400        14
    24.8600         4
    24.8800        10
    24.9000         6
    24.9200        14
    24.9400        14
    24.9600        10
    24.9800        16
    25.0000        12
    25.0200        10
    25.0400        14
    25.0600        14
    25.0800        14
    25.1000         6
    25.1200        16
    25.1400        20
    25.1600        16
    25.1800        10
    25.2000        10
    25.2200         8
    25.2400        14
    25.2600        14
    25.2800        12
    25.3000        14
    25.3200        12
    25.3400        12
    25.3600        12
    25.3800        14
    25.4000        10
    25.4200        10
    25.4400        18
    25.4600        12
    25.4800        10
    25.5000         8
    25.5200        14
    25.5400        14
    25.5600        12
    25.5800        16
    25.6000         8
    25.6200        10
    25.6400         8
    25.6600        20
    25.6800        16
    25.7000         8
    25.7200        10
    25.7400        14
    25.7600        10
    25.7800         6
    25.8000        10
    25.8200        10
    25.8400        16
    25.8600        10
    25.8800         8
    25.9000        14
    25.9200        18
    25.9400        16
    25.9600        12
    25.9800        14
    26.0000        10
    26.0200        12
    26.0400        10
    26.0600        20
    26.0800        14
    26.1000         8
    26.1200        14
    26.1400        10
    26.1600        10
    26.1800        12
    26.2000        18
    26.2200        12
    26.2400        14
    26.2600         8
    26.2800        22
    26.3000        12
    26.3200         8
    26.3400        12
    26.3600        10
    26.3800        14
    26.4000        18
    26.4200        18
    26.4400        14
    26.4600        10
    26.4800        12
    26.5000        20
    26.5200        20
    26.5400        14
    26.5600        18
    26.5800        12
    26.6000        14
    26.6200        20
    26.6400        30
    26.6600        18
    26.6800        10
    26.7000        18
    26.7200        12
    26.7400        14
    26.7600         8
    26.7800        18
    26.8000        14
    26.8200        18
    26.8400        10
    26.8600        16
    26.8800        14
    26.9000        10
    26.9200        12
    26.9400        12
    26.9600        12
    26.9800        10
    27.0000        18
    27.0200        10
    27.0400        16
    27.0600         8
    27.0800        14
    27.1000        16
    27.1200         8
    27.1400        16
    27.1600        16
    27.1800        16
    27.2000        10
    27.2200        14
    27.2400        14
    27.2600        16
    27.2800        10
    27.3000        12
    27.3200        14
    27.3400        14
    27.3600         8
    27.3800        12
    27.4000        12
    27.4200        10
    27.4400        12
    27.4600        16
    27.4800        18
    27.5000        12
    27.5200        14
    27.5400        10
    27.5600        16
    27.5800        18
    27.6000        10
    27.6200         8
    27.6400        16
    27.6600        14
    27.6800        18
    27.7000        16
    27.7200        12
    27.7400         8
    27.7600         6
    27.7800         4
    27.8000        10
    27.8200        14
    27.8400        10
    27.8600        22
    27.8800        12
    27.9000        10
    27.9200        10
    27.9400        10
    27.9600        18
    27.9800        14
    28.0000        10
    28.0200        12
    28.0400         8
    28.0600         6
    28.0800        14
    28.1000         8
    28.1200        12
    28.1400        10
    28.1600         8
    28.1800        14
    28.2000        14
    28.2200        10
    28.2400        16
    28.2600        22
    28.2800        14
    28.3000        16
    28.3200        10
    28.3400        14
    28.3600        14
    28.3800        12
    28.4000        14
    28.4200        12
    28.4400        12
    28.4600         8
    28.4800        10
    28.5000        10
    28.5200        14
    28.5400         6
    28.5600        12
    28.5800        20
    28.6000        18
    28.6200        14
    28.6400         8
    28.6600        14
    28.6800        10
    28.7000        18
    28.7200        10
    28.7400        14
    28.7600        10
    28.7800        14
    28.8000        12
    28.8200        10
    28.8400        12
    28.8600        14
    28.8800        12
    28.9000        14
    28.9200        16
    28.9400        14
    28.9600        16
    28.9800        10
    29.0000        10
    29.0200         4
    29.0400        16
    29.0600        10
    29.0800        10
    29.1000        14
    29.1200        12
    29.1400        14
    29.1600        10
    29.1800        16
    29.2000        24
    29.2200        18
    29.2400        14
    29.2600        14
    29.2800         8
    29.3000         8
    29.3200        10
    29.3400        18
    29.3600        20
    29.3800         8
    29.4000        10
    29.4200        14
    29.4400         8
    29.4600         6
    29.4800         8
    29.5000        16
    29.5200        16
    29.5400        12
    29.5600        14
    29.5800        10
    29.6000        16
    29.6200         8
    29.6400        16
    29.6600        14
    29.6800        14
    29.7000        14
    29.7200        18
    29.7400        14
    29.7600        14
    29.7800        12
    29.8000        14
    29.8200        10
    29.8400        12
    29.8600        12
    29.8800        18
    29.9000        12
    29.9200        16
    29.9400        20
    29.9600        12
    29.9800        16
    30.0000        16
    30.0200        14
    30.0400        20
    30.0600        16
    30.0800        20
    30.1000        16
    30.1200        14
    30.1400        20
    30.1600        10
    30.1800        20
    30.2000        18
    30.2200        12
    30.2400        14
    30.2600        16
    30.2800         6
    30.3000        14
    30.3200        14
    30.3400        14
    30.3600        12
    30.3800        22
    30.4000        20
    30.4200        10
    30.4400        14
    30.4600        18
    30.4800        14
    30.5000        18
    30.5200        16
    30.5400        20
    30.5600        16
    30.5800        16
    30.6000        16
    30.6200        14
    30.6400        10
    30.6600         8
    30.6800        14
    30.7000        18
    30.7200        14
    30.7400        20
    30.7600        18
    30.7800        10
    30.8000        16
    30.8200        12
    30.8400        16
    30.8600        12
    30.8800        12
    30.9000        18
    30.9200        12
    30.9400        16
    30.9600        16
    30.9800        14
    31.0000        24
    31.0200        14
    31.0400        12
    31.0600        18
    31.0800        18
    31.1000        10
    31.1200        16
    31.1400        24
    31.1600        24
    31.1800        20
    31.2000        22
    31.2200        16
    31.2400        26
    31.2600        18
    31.2800        24
    31.3000        20
    31.3200        14
    31.3400        16
    31.3600        14
    31.3800        18
    31.4000        22
    31.4200        20
    31.4400        12
    31.4600        22
    31.4800        28
    31.5000        24
    31.5200        26
    31.5400        24
    31.5600        28
    31.5800        30
    31.6000        26
    31.6200        32
    31.6400        48
    31.6600        42
    31.6800        48
    31.7000        38
    31.7200        48
    31.7400        50
    31.7600        50
    31.7800        46
    31.8000        50
    31.8200        54
    31.8400        40
    31.8600        44
    31.8800        40
    31.9000        48
    31.9200        32
    31.9400        34
    31.9600        34
    31.9800        26
    32.0000        24
    32.0200        30
    32.0400        26
    32.0600        22
    32.0800        16
    32.1000        22
    32.1200        14
    32.1400        16
    32.1600        24
    32.1800        14
    32.2000        20
    32.2200        28
    32.2400        26
    32.2600        16
    32.2800        20
    32.3000        18
    32.3200        22
    32.3400        22
    32.3600        18
    32.3800        18
    32.4000        16
    32.4200        18
    32.4400        22
    32.4600        10
    32.4800        22
    32.5000        12
    32.5200        16
    32.5400        18
    32.5600        18
    32.5800        18
    32.6000        20
    32.6200        16
    32.6400        18
    32.6600        12
    32.6800        18
    32.7000        26
    32.7200        18
    32.7400        16
    32.7600        16
    32.7800        26
    32.8000        16
    32.8200        22
    32.8400        26
    32.8600        16
    32.8800        20
    32.9000        16
    32.9200        30
    32.9400        28
    32.9600        26
    32.9800        30
    33.0000        38
    33.0200        34
    33.0400        40
    33.0600        28
    33.0800        48
    33.1000        42
    33.1200        50
    33.1400        52
    33.1600        48
    33.1800        66
    33.2000        66
    33.2200        56
    33.2400        66
    33.2600        72
    33.2800        66
    33.3000        60
    33.3200        60
    33.3400        52
    33.3600        58
    33.3800        62
    33.4000        46
    33.4200        44
    33.4400        52
    33.4600        50
    33.4800        42
    33.5000        54
    33.5200        38
    33.5400        50
    33.5600        44
    33.5800        38
    33.6000        58
    33.6200        56
    33.6400        44
    33.6600        44
    33.6800        40
    33.7000        44
    33.7200        40
    33.7400        42
    33.7600        38
    33.7800        48
    33.8000        50
    33.8200        34
    33.8400        30
    33.8600        28
    33.8800        42
    33.9000        44
    33.9200        34
    33.9400        30
    33.9600        38
    33.9800        42
    34.0000        32
    34.0200        30
    34.0400        28
    34.0600        26
    34.0800        26
    34.1000        24
    34.1200        26
    34.1400        28
    34.1600        34
    34.1800        28
    34.2000        28
    34.2200        26
    34.2400        22
    34.2600        36
    34.2800        30
    34.3000        26
    34.3200        30
    34.3400        22
    34.3600        26
    34.3800        28
    34.4000        24
    34.4200        30
    34.4400        28
    34.4600        24
    34.4800        30
    34.5000        22
    34.5200        32
    34.5400        22
    34.5600        28
    34.5800        26
    34.6000        28
    34.6200        26
    34.6400        28
    34.6600        32
    34.6800        28
    34.7000        36
    34.7200        28
    34.7400        30
    34.7600        26
    34.7800        22
    34.8000        24
    34.8200        36
    34.8400        28
    34.8600        20
    34.8800        26
    34.9000        22
    34.9200        22
    34.9400        24
    34.9600        30
    34.9800        16
    35.0000        14
    35.0200        18
    35.0400        24
    35.0600        12
    35.0800        30
    35.1000        22
    35.1200        18
    35.1400        24
    35.1600        30
    35.1800        30
    35.2000        20
    35.2200        16
    35.2400        22
    35.2600        18
    35.2800        16
    35.3000        22
    35.3200        22
    35.3400        28
    35.3600        24
    35.3800        20
    35.4000        26
    35.4200        28
    35.4400        20
    35.4600        22
    35.4800        18
    35.5000        22
    35.5200        22
    35.5400        30
    35.5600        28
    35.5800        28
    35.6000        24
    35.6200        24
    35.6400        32
    35.6600        24
    35.6800        24
    35.7000        36
    35.7200        26
    35.7400        30
    35.7600        28
    35.7800        38
    35.8000        32
    35.8200        28
    35.8400        30
    35.8600        36
    35.8800        26
    35.9000        40
    35.9200        32
    35.9400        42
    35.9600        44
    35.9800        34
    36.0000        44
    36.0200        42
    36.0400        48
    36.0600        64
    36.0800        62
    36.1000        46
    36.1200        56
    36.1400        44
    36.1600        60
    36.1800        56
    36.2000        54
    36.2200        52
    36.2400        46
    36.2600        42
    36.2800        48
    36.3000        48
    36.3200        58
    36.3400        34
    36.3600        44
    36.3800        26
    36.4000        48
    36.4200        30
    36.4400        44
    36.4600        30
    36.4800        28
    36.5000        36
    36.5200        40
    36.5400        34
    36.5600        36
    36.5800        42
    36.6000        28
    36.6200        40
    36.6400        34
    36.6600        32
    36.6800        32
    36.7000        34
    36.7200        20
    36.7400        34
    36.7600        42
    36.7800        32
    36.8000        26
    36.8200        34
    36.8400        30
    36.8600        44
    36.8800        36
    36.9000        30
    36.9200        30
    36.9400        36
    36.9600        42
    36.9800        40
    37.0000        48
    37.0200        36
    37.0400        36
    37.0600        52
    37.0800        46
    37.1000        48
    37.1200        50
    37.1400        46
    37.1600        40
    37.1800        50
    37.2000        56
    37.2200        46
    37.2400        82
    37.2600        80
    37.2800        92
    37.3000        86
    37.3200        94
    37.3400       104
    37.3600       140
    37.3800       124
    37.4000       142
    37.4200       138
    37.4400       158
    37.4600       164
    37.4800       152
    37.5000       152
    37.5200       146
    37.5400       140
    37.5600       128
    37.5800        98
    37.6000        90
    37.6200        98
    37.6400        78
    37.6600        74
    37.6800        82
    37.7000        64
    37.7200        64
    37.7400        50
    37.7600        56
    37.7800        62
    37.8000        54
    37.8200        74
    37.8400        68
    37.8600        74
    37.8800        56
    37.9000        74
    37.9200        64
    37.9400        72
    37.9600        80
    37.9800        66
    38.0000        76
    38.0200        74
    38.0400        68
    38.0600        72
    38.0800        66
    38.1000        82
    38.1200        64
    38.1400        62
    38.1600        74
    38.1800        80
    38.2000        84
    38.2200        96
    38.2400        82
    38.2600       108
    38.2800       114
    38.3000       114
    38.3200       128
    38.3400       144
    38.3600       152
    38.3800       168
    38.4000       166
    38.4200       168
    38.4400       164
    38.4600       216
    38.4800       160
    38.5000       178
    38.5200       140
    38.5400       138
    38.5600       112
    38.5800        94
    38.6000        90
    38.6200        78
    38.6400        70
    38.6600        66
    38.6800        62
    38.7000        58
    38.7200        40
    38.7400        30
    38.7600        34
    38.7800        42
    38.8000        38
    38.8200        42
    38.8400        34
    38.8600        36
    38.8800        34
    38.9000        30
    38.9200        28
    38.9400        38
    38.9600        32
    38.9800        22
    39.0000        40
    39.0200        28
    39.0400        30
    39.0600        22
    39.0800        36
    39.1000        34
    39.1200        28
    39.1400        22
    39.1600        34
    39.1800        34
    39.2000        22
    39.2200        32
    39.2400        34
    39.2600        34
    39.2800        22
    39.3000        32
    39.3200        34
    39.3400        32
    39.3600        28
    39.3800        24
    39.4000        28
    39.4200        24
    39.4400        32
    39.4600        24
    39.4800        32
    39.5000        42
    39.5200        26
    39.5400        44
    39.5600        48
    39.5800        34
    39.6000        44
    39.6200        48
    39.6400        62
    39.6600        46
    39.6800        48
    39.7000        48
    39.7200        46
    39.7400        56
    39.7600        66
    39.7800        44
    39.8000        52
    39.8200        50
    39.8400        52
    39.8600        50
    39.8800        52
    39.9000        50
    39.9200        44
    39.9400        30
    39.9600        32
    39.9800        34
    40.0000        42
    40.0200        46
    40.0400        56
    40.0600        66
    40.0800        58
    40.1000        66
    40.1200        60
    40.1400        88
    40.1600        90
    40.1800       104
    40.2000       108
    40.2200       120
    40.2400       134
    40.2600       168
    40.2800       152
    40.3000       184
    40.3200       188
    40.3400       164
    40.3600       218
    40.3800       196
    40.4000       178
    40.4200       178
    40.4400       168
    40.4600       144
    40.4800       132
    40.5000       108
    40.5200       104
    40.5400        82
    40.5600        80
    40.5800        66
    40.6000        58
    40.6200        48
    40.6400        50
    40.6600        58
    40.6800        44
    40.7000        48
    40.7200        40
    40.7400        34
    40.7600        42
    40.7800        36
    40.8000        42
    40.8200        34
    40.8400        42
    40.8600        38
    40.8800        32
    40.9000        34
    40.9200        32
    40.9400        28
    40.9600        24
    40.9800        30
    41.0000        22
    41.0200        36
    41.0400        26
    41.0600        22
    41.0800        34
    41.1000        26
    41.1200        20
    41.1400        28
    41.1600        32
    41.1800        30
    41.2000        34
    41.2200        20
    41.2400        32
    41.2600        18
    41.2800        28
    41.3000        20
    41.3200        20
    41.3400        22
    41.3600        26
    41.3800        22
    41.4000        24
    41.4200        24
    41.4400        26
    41.4600        32
    41.4800        18
    41.5000        32
    41.5200        30
    41.5400        22
    41.5600        28
    41.5800        32
    41.6000        26
    41.6200        20
    41.6400        24
    41.6600        30
    41.6800        26
    41.7000        38
    41.7200        24
    41.7400        36
    41.7600        24
    41.7800        34
    41.8000        28
    41.8200        28
    41.8400        20
    41.8600        28
    41.8800        28
    41.9000        24
    41.9200        22
    41.9400        24
    41.9600        24
    41.9800        26
    42.0000        28
    42.0200        36
    42.0400        30
    42.0600        18
    42.0800        28
    42.1000        18
    42.1200        30
    42.1400        16
    42.1600        26
    42.1800        24
    42.2000        22
    42.2200        34
    42.2400        18
    42.2600        24
    42.2800        26
    42.3000        24
    42.3200        28
    42.3400        22
    42.3600        24
    42.3800        36
    42.4000        14
    42.4200        20
    42.4400        26
    42.4600        24
    42.4800        16
    42.5000        22
    42.5200        26
    42.5400        22
    42.5600        24
    42.5800        22
    42.6000        20
    42.6200        22
    42.6400        24
    42.6600        30
    42.6800        30
    42.7000        22
    42.7200        32
    42.7400        30
    42.7600        18
    42.7800        18
    42.8000        26
    42.8200        22
    42.8400        34
    42.8600        28
    42.8800        32
    42.9000        24
    42.9200        24
    42.9400        38
    42.9600        34
    42.9800        24
    43.0000        38
    43.0200        32
    43.0400        40
    43.0600        22
    43.0800        36
    43.1000        56
    43.1200        40
    43.1400        32
    43.1600        54
    43.1800        42
    43.2000        46
    43.2200        40
    43.2400        50
    43.2600        44
    43.2800        44
    43.3000        52
    43.3200        34
    43.3400        36
    43.3600        26
    43.3800        32
    43.4000        30
    43.4200        26
    43.4400        24
    43.4600        16
    43.4800        30
    43.5000        22
    43.5200        22
    43.5400        30
    43.5600        20
    43.5800        34
    43.6000        22
    43.6200        34
    43.6400        22
    43.6600        22
    43.6800        36
    43.7000        32
    43.7200        24
    43.7400        22
    43.7600        28
    43.7800        30
    43.8000        32
    43.8200        22
    43.8400        26
    43.8600        30
    43.8800        32
    43.9000        20
    43.9200        24
    43.9400        24
    43.9600        24
    43.9800        24
    44.0000        26
    44.0200        28
    44.0400        32
    44.0600        26
    44.0800        26
    44.1000        34
    44.1200        44
    44.1400        32
    44.1600        30
    44.1800        30
    44.2000        24
    44.2200        30
    44.2400        46
    44.2600        22
    44.2800        40
    44.3000        42
    44.3200        42
    44.3400        44
    44.3600        46
    44.3800        74
    44.4000        72
    44.4200        62
    44.4400        80
    44.4600        72
    44.4800        80
    44.5000        92
    44.5200       102
    44.5400        94
    44.5600       116
    44.5800       106
    44.6000       106
    44.6200       134
    44.6400       122
    44.6600       112
    44.6800       120
    44.7000       120
    44.7200       122
    44.7400        86
    44.7600       110
    44.7800       116
    44.8000        98
    44.8200        82
    44.8400        80
    44.8600        78
    44.8800        72
    44.9000        50
    44.9200        54
    44.9400        42
    44.9600        54
    44.9800        38
    45.0000        50
    45.0200        46
    45.0400        36
    45.0600        40
    45.0800        36
    45.1000        32
    45.1200        38
    45.1400        50
    45.1600        30
    45.1800        34
    45.2000        28
    45.2200        36
    45.2400        42
    45.2600        40
    45.2800        38
    45.3000        38
    45.3200        42
    45.3400        48
    45.3600        50
    45.3800        62
    45.4000        58
    45.4200        68
    45.4400        70
    45.4600        72
    45.4800        90
    45.5000        84
    45.5200        80
    45.5400       100
    45.5600       102
    45.5800        84
    45.6000        88
    45.6200        98
    45.6400        88
    45.6600        78
    45.6800        80
    45.7000        72
    45.7200        80
    45.7400        54
    45.7600        62
    45.7800        48
    45.8000        54
    45.8200        48
    45.8400        44
    45.8600        38
    45.8800        20
    45.9000        32
    45.9200        28
    45.9400        24
    45.9600        20
    45.9800        14
    46.0000        26
    46.0200        22
    46.0400        24
    46.0600        18
    46.0800        22
    46.1000        24
    46.1200        18
    46.1400        28
    46.1600        26
    46.1800        18
    46.2000        18
    46.2200        10
    46.2400        22
    46.2600        18
    46.2800        18
    46.3000        18
    46.3200        20
    46.3400        16
    46.3600        16
    46.3800        18
    46.4000        20
    46.4200        10
    46.4400        14
    46.4600        18
    46.4800        12
    46.5000        12
    46.5200        18
    46.5400        12
    46.5600        16
    46.5800        14
    46.6000        10
    46.6200        16
    46.6400         8
    46.6600        12
    46.6800        14
    46.7000        20
    46.7200        10
    46.7400        12
    46.7600        10
    46.7800        10
    46.8000         6
    46.8200        16
    46.8400        22
    46.8600        14
    46.8800         8
    46.9000        14
    46.9200        14
    46.9400        18
    46.9600        18
    46.9800        20
    47.0000        22
    47.0200        16
    47.0400        20
    47.0600         6
    47.0800        18
    47.1000        14
    47.1200        14
    47.1400        18
    47.1600        16
    47.1800        16
    47.2000        10
    47.2200        10
    47.2400        14
    47.2600        12
    47.2800        22
    47.3000        10
    47.3200        12
    47.3400        20
    47.3600        16
    47.3800        20
    47.4000        14
    47.4200         6
    47.4400        14
    47.4600         8
    47.4800        14
    47.5000        10
    47.5200        20
    47.5400        12
    47.5600        12
    47.5800        18
    47.6000        18
    47.6200        16
    47.6400        14
    47.6600        14
    47.6800         8
    47.7000        14
    47.7200         8
    47.7400        12
    47.7600        10
    47.7800        10
    47.8000        12
    47.8200        16
    47.8400        16
    47.8600        12
    47.8800        14
    47.9000        10
    47.9200        10
    47.9400        12
    47.9600        10
    47.9800        10
    48.0000        18
    48.0200        12
    48.0400        12
    48.0600        26
    48.0800        16
    48.1000         8
    48.1200        14
    48.1400        14
    48.1600        14
    48.1800        14
    48.2000        14
    48.2200        14
    48.2400        20
    48.2600        14
    48.2800         8
    48.3000        16
    48.3200        12
    48.3400        10
    48.3600        16
    48.3800        18
    48.4000        10
    48.4200        12
    48.4400        10
    48.4600        12
    48.4800        14
    48.5000        14
    48.5200        10
    48.5400        18
    48.5600        12
    48.5800        10
    48.6000        16
    48.6200        10
    48.6400        14
    48.6600        16
    48.6800        10
    48.7000        10
    48.7200        12
    48.7400        18
    48.7600        22
    48.7800        20
    48.8000        12
    48.8200        12
    48.8400        12
    48.8600        14
    48.8800        16
    48.9000        12
    48.9200        14
    48.9400        12
    48.9600        16
    48.9800        14
    49.0000        14
    49.0200        12
    49.0400        14
    49.0600        10
    49.0800        14
    49.1000        14
    49.1200        14
    49.1400        10
    49.1600        14
    49.1800        14
    49.2000        18
    49.2200        18
    49.2400        16
    49.2600        16
    49.2800        24
    49.3000        12
    49.3200        14
    49.3400        14
    49.3600        18
    49.3800        16
    49.4000        14
    49.4200        18
    49.4400        14
    49.4600        10
    49.4800        12
    49.5000        20
    49.5200        14
    49.5400        24
    49.5600        28
    49.5800        16
    49.6000        24
    49.6200        18
    49.6400        24
    49.6600        14
    49.6800        24
    49.7000        20
    49.7200        20
    49.7400        16
    49.7600        24
    49.7800        26
    49.8000        22
    49.8200        18
    49.8400        26
    49.8600        28
    49.8800        40
    49.9000        22
    49.9200        24
    49.9400        26
    49.9600        14
    49.9800        20
    50.0000        28
    50.0200        28
    50.0400        16
    50.0600        20
    50.0800        14
    50.1000        10
    50.1200        16
    50.1400        22
    50.1600        16
    50.1800        16
    50.2000        20
    50.2200        22
    50.2400        18
    50.2600        10
    50.2800        14
    50.3000        16
    50.3200        14
    50.3400        16
    50.3600        18
    50.3800        10
    50.4000        14
    50.4200        20
    50.4400        16
    50.4600        18
    50.4800        12
    50.5000        12
    50.5200        14
    50.5400        10
    50.5600        14
    50.5800        18
    50.6000        14
    50.6200        18
    50.6400        12
    50.6600        10
    50.6800        22
    50.7000        14
    50.7200        10
    50.7400        16
    50.7600        12
    50.7800        16
    50.8000         6
    50.8200         6
    50.8400        16
    50.8600        12
    50.8800        16
    50.9000        16
    50.9200         6
    50.9400        12
    50.9600        18
    50.9800        12
    51.0000         8
    51.0200        12
    51.0400        12
    51.0600        10
    51.0800         6
    51.1000        12
    51.1200        12
    51.1400        12
    51.1600        10
    51.1800        20
    51.2000         8
    51.2200        10
    51.2400        14
    51.2600         8
    51.2800        10
    51.3000        16
    51.3200         8
    51.3400        16
    51.3600        12
    51.3800         8
    51.4000        12
    51.4200        14
    51.4400        12
    51.4600        10
    51.4800        10
    51.5000        10
    51.5200        16
    51.5400        10
    51.5600         6
    51.5800         4
    51.6000        12
    51.6200         8
    51.6400         8
    51.6600        14
    51.6800        12
    51.7000        16
    51.7200        10
    51.7400        12
    51.7600        20
    51.7800        16
    51.8000         4
    51.8200        12
    51.8400        14
    51.8600         8
    51.8800         8
    51.9000         6
    51.9200         8
    51.9400        10
    51.9600        12
    51.9800        14
    52.0000        14
    52.0200        14
    52.0400        10
    52.0600         8
    52.0800         6
    52.1000        12
    52.1200        10
    52.1400        18
    52.1600        10
    52.1800        14
    52.2000        16
    52.2200         8
    52.2400        10
    52.2600        12
    52.2800        16
    52.3000        16
    52.3200        14
    52.3400        18
    52.3600         8
    52.3800        14
    52.4000        16
    52.4200        18
    52.4400        14
    52.4600        16
    52.4800        20
    52.5000        14
    52.5200        12
    52.5400        14
    52.5600        14
    52.5800        20
    52.6000        12
    52.6200        10
    52.6400        12
    52.6600        10
    52.6800        14
    52.7000        24
    52.7200        14
    52.7400        20
    52.7600        14
    52.7800        12
    52.8000        14
    52.8200         8
    52.8400        14
    52.8600        14
    52.8800         6
    52.9000        12
    52.9200        14
    52.9400        12
    52.9600        14
    52.9800        12
    53.0000        12
    53.0200        10
    53.0400        14
    53.0600         8
    53.0800        12
    53.1000        10
    53.1200        10
    53.1400        12
    53.1600        12
    53.1800        10
    53.2000        12
    53.2200        14
    53.2400        18
    53.2600         4
    53.2800         6
    53.3000        12
    53.3200        16
    53.3400         8
    53.3600        12
    53.3800        12
    53.4000        12
    53.4200        16
    53.4400         6
    53.4600        16
    53.4800         4
    53.5000        14
    53.5200        10
    53.5400        14
    53.5600        10
    53.5800        12
    53.6000         8
    53.6200         8
    53.6400        12
    53.6600        14
    53.6800         8
    53.7000         8
    53.7200        10
    53.7400        14
    53.7600        12
    53.7800         8
    53.8000        10
    53.8200        10
    53.8400         8
    53.8600        16
    53.8800         6
    53.9000         8
    53.9200        12
    53.9400         6
    53.9600        12
    53.9800         4
    54.0000        12
    54.0200        12
    54.0400        22
    54.0600        12
    54.0800        12
    54.1000        10
    54.1200        12
    54.1400        20
    54.1600         6
    54.1800        12
    54.2000        10
    54.2200        18
    54.2400        12
    54.2600        16
    54.2800        18
    54.3000        18
    54.3200        18
    54.3400        20
    54.3600        16
    54.3800        10
    54.4000        12
    54.4200        14
    54.4400        16
    54.4600        18
    54.4800        18
    54.5000        14
    54.5200        18
    54.5400        16
    54.5600        16
    54.5800        14
    54.6000        10
    54.6200         8
    54.6400        16
    54.6600        10
    54.6800        10
    54.7000        12
    54.7200        16
    54.7400        12
    54.7600         6
    54.7800        14
    54.8000        16
    54.8200        14
    54.8400        18
    54.8600        12
    54.8800        12
    54.9000        10
    54.9200        16
    54.9400        10
    54.9600         8
    54.9800        16
    55.0000        10
    55.0200        12
    55.0400        10
    55.0600        14
    55.0800         6
    55.1000        14
    55.1200        16
    55.1400         6
    55.1600        14
    55.1800        14
    55.2000        12
    55.2200        18
    55.2400         8
    55.2600         6
    55.2800        16
    55.3000        12
    55.3200        10
    55.3400        18
    55.3600        10
    55.3800        16
    55.4000        16
    55.4200        10
    55.4400        12
    55.4600        12
    55.4800         8
    55.5000        16
    55.5200        16
    55.5400        14
    55.5600        14
    55.5800        14
    55.6000        10
    55.6200        18
    55.6400        18
    55.6600        14
    55.6800        16
    55.7000        14
    55.7200        10
    55.7400        12
    55.7600        12
    55.7800        16
    55.8000        12
    55.8200        16
    55.8400        10
    55.8600        16
    55.8800        18
    55.9000        12
    55.9200        12
    55.9400        16
    55.9600        14
    55.9800        18
    56.0000         8
    56.0200        16
    56.0400        12
    56.0600        10
    56.0800        18
    56.1000        22
    56.1200        18
    56.1400        12
    56.1600        14
    56.1800        18
    56.2000        12
    56.2200        22
    56.2400        16
    56.2600        12
    56.2800        18
    56.3000        14
    56.3200        18
    56.3400        14
    56.3600        12
    56.3800        18
    56.4000        10
    56.4200        16
    56.4400        16
    56.4600        22
    56.4800        18
    56.5000        18
    56.5200        18
    56.5400        16
    56.5600        24
    56.5800        24
    56.6000        22
    56.6200        18
    56.6400        32
    56.6600        22
    56.6800        30
    56.7000        32
    56.7200        18
    56.7400        26
    56.7600        20
    56.7800        20
    56.8000        18
    56.8200        22
    56.8400        24
    56.8600        16
    56.8800        14
    56.9000        12
    56.9200        16
    56.9400        16
    56.9600        14
    56.9800        18
    57.0000        12
    57.0200        10
    57.0400        12
    57.0600         8
    57.0800        16
    57.1000        16
    57.1200        16
    57.1400        16
    57.1600         8
    57.1800        12
    57.2000        12
    57.2200         8
    57.2400        14
    57.2600        12
    57.2800        14
    57.3000        14
    57.3200        14
    57.3400        14
    57.3600        12
    57.3800        12
    57.4000        14
    57.4200        10
    57.4400        16
    57.4600        14
    57.4800        18
    57.5000        12
    57.5200        22
    57.5400        10
    57.5600        14
    57.5800        20
    57.6000         2
    57.6200        16
    57.6400        10
    57.6600        20
    57.6800        14
    57.7000        16
    57.7200        16
    57.7400         8
    57.7600        10
    57.7800        12
    57.8000         8
    57.8200        14
    57.8400        20
    57.8600        18
    57.8800        14
    57.9000         8
    57.9200        14
    57.9400        16
    57.9600        12
    57.9800        12
    58.0000        12
    58.0200        12
    58.0400        10
    58.0600        18
    58.0800        12
    58.1000        24
    58.1200        26
    58.1400        28
    58.1600        22
    58.1800        18
    58.2000        26
    58.2200        28
    58.2400        30
    58.2600        22
    58.2800        28
    58.3000        24
    58.3200        30
    58.3400        40
    58.3600        18
    58.3800        28
    58.4000        28
    58.4200        34
    58.4400        44
    58.4600        32
    58.4800        26
    58.5000        30
    58.5200        28
    58.5400        22
    58.5600        26
    58.5800        22
    58.6000        24
    58.6200        30
    58.6400        18
    58.6600        26
    58.6800        24
    58.7000        22
    58.7200        14
    58.7400        30
    58.7600        20
    58.7800        18
    58.8000        14
    58.8200        16
    58.8400        22
    58.8600        18
    58.8800        16
    58.9000        16
    58.9200        14
    58.9400        16
    58.9600        20
    58.9800        20
    59.0000        16
    59.0200        10
    59.0400        16
    59.0600        22
    59.0800        16
    59.1000        16
    59.1200        28
    59.1400        24
    59.1600        16
    59.1800        24
    59.2000        20
    59.2200        32
    59.2400        28
    59.2600        26
    59.2800        26
    59.3000        36
    59.3200        28
    59.3400        34
    59.3600        40
    59.3800        30
    59.4000        36
    59.4200        48
    59.4400        44
    59.4600        34
    59.4800        32
    59.5000        32
    59.5200        38
    59.5400        36
    59.5600        36
    59.5800        36
    59.6000        46
    59.6200        28
    59.6400        24
    59.6600        40
    59.6800        30
    59.7000        20
    59.7200        26
    59.7400        28
    59.7600        32
    59.7800        36
    59.8000        26
    59.8200        30
    59.8400        36
    59.8600        34
    59.8800        32
    59.9000        28
    59.9200        26
    59.9400        38
    59.9600        34
    59.9800        30
    60.0000        34
    60.0200        48
    60.0400        30
    60.0600        38
    60.0800        34
    60.1000        30
    60.1200        32
    60.1400        38
    60.1600        38
    60.1800        38
    60.2000        34
    60.2200        46
    60.2400        46
    60.2600        48
    60.2800        42
    60.3000        52
    60.3200        52
    60.3400        48
    60.3600        50
    60.3800        46
    60.4000        50
    60.4200        54
    60.4400        56
    60.4600        48
    60.4800        46
    60.5000        52
    60.5200        48
    60.5400        40
    60.5600        44
    60.5800        56
    60.6000        46
    60.6200        38
    60.6400        36
    60.6600        36
    60.6800        28
    60.7000        22
    60.7200        30
    60.7400        26
    60.7600        22
    60.7800        24
    60.8000        16
    60.8200        26
    60.8400        22
    60.8600        24
    60.8800        12
    60.9000        14
    60.9200        12
    60.9400         8
    60.9600        12
    60.9800        14
    61.0000        18
    61.0200        12
    61.0400        18
    61.0600        18
    61.0800        12
    61.1000        18
    61.1200        14
    61.1400        18
    61.1600        16
    61.1800        18
    61.2000        20
    61.2200        14
    61.2400        20
    61.2600        14
    61.2800        14
    61.3000        16
    61.3200        16
    61.3400         8
    61.3600        20
    61.3800        10
    61.4000        18
    61.4200        14
    61.4400        12
    61.4600        16
    61.4800        14
    61.5000        14
    61.5200        22
    61.5400        10
    61.5600        14
    61.5800        20
    61.6000        12
    61.6200        14
    61.6400        10
    61.6600        12
    61.6800        18
    61.7000        14
    61.7200        14
    61.7400        14
    61.7600        12
    61.7800        14
    61.8000        16
    61.8200        14
    61.8400        16
    61.8600        20
    61.8800        22
    61.9000        14
    61.9200        14
    61.9400        10
    61.9600        24
    61.9800        14
    62.0000        20
    62.0200        16
    62.0400        20
    62.0600        16
    62.0800        22
    62.1000        16
    62.1200        12
    62.1400        12
    62.1600        16
    62.1800        18
    62.2000        14
    62.2200        18
    62.2400        16
    62.2600        14
    62.2800        16
    62.3000        14
    62.3200        14
    62.3400        16
    62.3600        22
    62.3800        14
    62.4000        22
    62.4200        20
    62.4400        16
    62.4600        16
    62.4800        16
    62.5000        14
    62.5200        10
    62.5400        10
    62.5600        16
    62.5800        14
    62.6000        10
    62.6200        16
    62.6400         8
    62.6600        12
    62.6800        10
    62.7000        16
    62.7200        14
    62.7400        16
    62.7600        10
    62.7800        14
    62.8000        14
    62.8200        12
    62.8400        18
    62.8600        12
    62.8800        14
    62.9000        18
    62.9200        14
    62.9400        16
    62.9600        20
    62.9800         8
    63.0000        14
    63.0200        16
    63.0400        12
    63.0600        16
    63.0800        18
    63.1000        16
    63.1200        12
    63.1400        14
    63.1600        18
    63.1800        18
    63.2000         6
    63.2200        16
    63.2400        12
    63.2600        18
    63.2800        12
    63.3000        12
    63.3200        14
    63.3400        10
    63.3600         6
    63.3800        18
    63.4000         8
    63.4200         8
    63.4400        14
    63.4600        20
    63.4800        14
    63.5000        12
    63.5200         8
    63.5400        12
    63.5600        18
    63.5800        18
    63.6000        18
    63.6200        10
    63.6400        14
    63.6600        16
    63.6800        12
    63.7000        16
    63.7200        14
    63.7400        14
    63.7600        14
    63.7800        10
    63.8000        12
    63.8200         6
    63.8400        22
    63.8600         8
    63.8800        20
    63.9000        10
    63.9200        18
    63.9400        22
    63.9600        16
    63.9800        12
    64.0000        14
    64.0200        14
    64.0400        16
    64.0600        18
    64.0800        14
    64.1000        18
    64.1200        10
    64.1400        14
    64.1600        16
    64.1800        12
    64.2000        18
    64.2200        12
    64.2400        18
    64.2600        18
    64.2800        18
    64.3000        20
    64.3200        12
    64.3400        16
    64.3600        16
    64.3800        28
    64.4000        18
    64.4200        18
    64.4400        14
    64.4600        22
    64.4800        16
    64.5000        20
    64.5200        22
    64.5400        12
    64.5600        28
    64.5800        24
    64.6000        18
    64.6200        22
    64.6400        16
    64.6600        28
    64.6800        36
    64.7000        32
    64.7200        32
    64.7400        34
    64.7600        34
    64.7800        34
    64.8000        38
    64.8200        40
    64.8400        44
    64.8600        64
    64.8800        50
    64.9000        52
    64.9200        60
    64.9400        46
    64.9600        40
    64.9800        50
    65.0000        58
    65.0200        50
    65.0400        52
    65.0600        58
    65.0800        48
    65.1000        62
    65.1200        72
    65.1400        58
    65.1600        52
    65.1800        42
    65.2000        38
    65.2200        48
    65.2400        40
    65.2600        36
    65.2800        34
    65.3000        34
    65.3200        32
    65.3400        30
    65.3600        34
    65.3800        38
    65.4000        34
    65.4200        28
    65.4400        28
    65.4600        34
    65.4800        18
    65.5000        32
    65.5200        30
    65.5400        16
    65.5600        28
    65.5800        28
    65.6000        30
    65.6200        22
    65.6400        24
    65.6600        20
    65.6800        22
    65.7000        22
    65.7200        30
    65.7400        30
    65.7600        26
    65.7800        30
    65.8000        24
    65.8200        32
    65.8400        22
    65.8600        30
    65.8800        26
    65.9000        38
    65.9200        38
    65.9400        32
    65.9600        38
    65.9800        34
    66.0000        32
    66.0200        48
    66.0400        46
    66.0600        44
    66.0800        46
    66.1000        46
    66.1200        52
    66.1400        56
    66.1600        52
    66.1800        62
    66.2000        52
    66.2200        60
    66.2400        58
    66.2600        56
    66.2800        84
    66.3000        76
    66.3200        80
    66.3400        66
    66.3600       100
    66.3800        88
    66.4000        92
    66.4200        92
    66.4400        82
    66.4600        90
    66.4800        84
    66.5000        82
    66.5200        92
    66.5400        86
    66.5600        96
    66.5800        78
    66.6000        68
    66.6200        74
    66.6400        60
    66.6600        76
    66.6800        58
    66.7000        54
    66.7200        58
    66.7400        54
    66.7600        44
    66.7800        28
    66.8000        30
    66.8200        40
    66.8400        36
    66.8600        36
    66.8800        26
    66.9000        30
    66.9200        34
    66.9400        22
    66.9600        18
    66.9800        24
    67.0000        18
    67.0200        24
    67.0400        18
    67.0600        24
    67.0800        18
    67.1000        24
    67.1200        18
    67.1400        24
    67.1600        22
    67.1800        16
    67.2000        14
    67.2200        18
    67.2400        10
    67.2600        22
    67.2800        20
    67.3000        10
    67.3200        14
    67.3400        22
    67.3600        18
    67.3800        14
    67.4000         8
    67.4200        22
    67.4400        16
    67.4600        22
    67.4800        18
    67.5000        16
    67.5200        16
    67.5400         6
    67.5600        10
    67.5800        16
    67.6000        14
    67.6200        10
    67.6400        18
    67.6600        12
    67.6800        16
    67.7000        18
    67.7200        10
    67.7400        14
    67.7600        16
    67.7800        14
    67.8000        12
    67.8200        18
    67.8400        14
    67.8600        18
    67.8800        22
    67.9000        10
    67.9200        14
    67.9400        16
    67.9600        12
    67.9800        10
    68.0000        12
    68.0200        10
    68.0400        20
    68.0600        14
    68.0800        10
    68.1000        16
    68.1200         8
    68.1400        12
    68.1600        10
    68.1800        10
    68.2000        14
    68.2200        16
    68.2400        10
    68.2600        16
    68.2800        10
    68.3000        12
    68.3200        12
    68.3400        16
    68.3600        12
    68.3800        12
    68.4000        20
    68.4200        14
    68.4400        14
    68.4600         8
    68.4800        16
    68.5000         8
    68.5200        20
    68.5400        14
    68.5600        12
    68.5800        18
    68.6000        12
    68.6200        14
    68.6400        14
    68.6600        10
    68.6800        16
    68.7000        16
    68.7200        12
    68.7400         6
    68.7600        12
    68.7800        12
    68.8000        22
    68.8200        16
    68.8400        16
    68.8600        20
    68.8800        10
    68.9000        16
    68.9200        18
    68.9400        16
    68.9600        20
    68.9800        10
    69.0000        20
    69.0200        18
    69.0400        16
    69.0600        12
    69.0800        12
    69.1000        16
    69.1200        14
    69.1400        16
    69.1600        20
    69.1800        14
    69.2000        12
    69.2200        20
    69.2400        16
    69.2600        12
    69.2800        10
    69.3000        16
    69.3200        18
    69.3400        14
    69.3600        18
    69.3800        16
    69.4000         8
    69.4200        16
    69.4400        16
    69.4600        24
    69.4800        22
    69.5000        20
    69.5200        20
    69.5400        14
    69.5600        10
    69.5800         6
    69.6000        22
    69.6200        10
    69.6400        12
    69.6600        22
    69.6800        14
    69.7000         6
    69.7200        18
    69.7400        18
    69.7600        18
    69.7800        18
    69.8000        20
    69.8200        14
    69.8400        26
    69.8600        26
    69.8800        24
    69.9000        24
    69.9200        22
    69.9400        22
    69.9600        22
    69.9800        26
    70.0000        18
    70.0200        28
    70.0400        24
    70.0600        24
    70.0800        16
    70.1000        16
    70.1200        24
    70.1400        24
    70.1600        18
    70.1800        16
    70.2000        16
    70.2200        18
    70.2400        14
    70.2600        28
    70.2800        22
    70.3000        28
    70.3200        16
    70.3400        18
    70.3600        18
    70.3800        18
    70.4000        24
    70.4200        22
    70.4400        22
    70.4600        16
    70.4800        18
    70.5000        20
    70.5200        12
    70.5400        28
    70.5600        12
    70.5800        22
    70.6000        20
    70.6200        18
    70.6400        22
    70.6600        16
    70.6800        16
    70.7000        18
    70.7200        10
    70.7400        16
    70.7600        20
    70.7800        20
    70.8000        14
    70.8200        16
    70.8400        30
    70.8600        26
    70.8800        14
    70.9000        18
    70.9200        20
    70.9400        30
    70.9600        20
    70.9800        20
    71.0000        28
    71.0200        20
    71.0400        22
    71.0600        26
    71.0800        28
    71.1000        24
    71.1200        20
    71.1400        20
    71.1600        18
    71.1800        20
    71.2000        22
    71.2200        22
    71.2400        20
    71.2600        24
    71.2800        22
    71.3000        28
    71.3200        20
    71.3400        20
    71.3600        16
    71.3800        28
    71.4000        20
    71.4200        24
    71.4400        20
    71.4600        22
    71.4800        20
    71.5000        24
    71.5200        34
    71.5400        34
    71.5600        28
    71.5800        26
    71.6000        24
    71.6200        26
    71.6400        28
    71.6600        28
    71.6800        18
    71.7000        28
    71.7200        24
    71.7400        18
    71.7600        18
    71.7800        12
    71.8000        32
    71.8200        18
    71.8400        20
    71.8600        24
    71.8800        20
    71.9000        24
    71.9200        20
    71.9400        12
    71.9600        18
    71.9800        20
    72.0000        20
    72.0200        18
    72.0400        14
    72.0600        10
    72.0800        12
    72.1000        18
    72.1200        12
    72.1400        20
    72.1600        14
    72.1800        20
    72.2000        12
    72.2200        16
    72.2400        14
    72.2600        20
    72.2800        18
    72.3000        12
    72.3200        20
    72.3400        14
    72.3600        16
    72.3800        18
    72.4000        10
    72.4200        14
    72.4400        18
    72.4600        18
    72.4800        12
    72.5000        20
    72.5200        18
    72.5400        18
    72.5600        16
    72.5800        16
    72.6000        16
    72.6200        14
    72.6400        26
    72.6600        22
    72.6800        24
    72.7000        14
    72.7200        18
    72.7400        22
    72.7600        26
    72.7800        20
    72.8000        14
    72.8200        22
    72.8400        14
    72.8600        24
    72.8800        22
    72.9000        32
    72.9200        24
    72.9400        18
    72.9600        24
    72.9800        24
    73.0000        20
    73.0200        18
    73.0400        32
    73.0600        14
    73.0800        28
    73.1000        34
    73.1200        34
    73.1400        28
    73.1600        30
    73.1800        36
    73.2000        40
    73.2200        42
    73.2400        46
    73.2600        56
    73.2800        66
    73.3000        54
    73.3200        68
    73.3400        56
    73.3600        76
    73.3800        60
    73.4000        66
    73.4200        54
    73.4400        54
    73.4600        72
    73.4800        60
    73.5000        52
    73.5200        58
    73.5400        48
    73.5600        60
    73.5800        48
    73.6000        36
    73.6200        40
    73.6400        36
    73.6600        42
    73.6800        32
    73.7000        30
    73.7200        32
    73.7400        20
    73.7600        36
    73.7800        26
    73.8000        20
    73.8200        22
    73.8400        28
    73.8600        26
    73.8800        20
    73.9000        18
    73.9200        20
    73.9400        16
    73.9600        14
    73.9800        20
    74.0000        22
    74.0200        16
    74.0400        12
    74.0600        14
    74.0800        20
    74.1000        12
    74.1200        12
    74.1400        18
    74.1600        10
    74.1800        12
    74.2000        14
    74.2200        16
    74.2400        16
    74.2600        20
    74.2800        10
    74.3000        16
    74.3200        16
    74.3400        10
    74.3600        14
    74.3800        20
    74.4000        16
    74.4200        16
    74.4400        12
    74.4600         6
    74.4800        12
    74.5000        16
    74.5200        10
    74.5400        14
    74.5600        18
    74.5800        16
    74.6000        14
    74.6200        10
    74.6400        16
    74.6600        12
    74.6800        12
    74.7000        18
    74.7200        12
    74.7400        14
    74.7600        24
    74.7800        16
    74.8000        18
    74.8200        10
    74.8400         8
    74.8600        14
    74.8800        20
    74.9000        14
    74.9200        16
    74.9400        14
    74.9600        10
    74.9800        16
    75.0000        22
    75.0200        12
    75.0400        14
    75.0600        22
    75.0800        16
    75.1000        12
    75.1200        18
    75.1400        22
    75.1600        10
    75.1800        22
    75.2000        18
    75.2200         8
    75.2400        22
    75.2600        22
    75.2800        22
    75.3000        20
    75.3200        20
    75.3400        16
    75.3600        18
    75.3800        20
    75.4000        18
    75.4200        22
    75.4400        20
    75.4600        16
    75.4800        16
    75.5000        16
    75.5200        22
    75.5400         8
    75.5600        28
    75.5800        14
    75.6000        20
    75.6200        22
    75.6400        20
    75.6600        24
    75.6800        16
    75.7000        18
    75.7200        18
    75.7400        12
    75.7600        14
    75.7800        16
    75.8000        14
    75.8200        10
    75.8400        16
    75.8600        16
    75.8800        18
    75.9000        16
    75.9200         8
    75.9400        12
    75.9600        12
    75.9800        12
    76.0000        14
    76.0200        18
    76.0400        12
    76.0600        22
    76.0800        14
    76.1000        18
    76.1200        10
    76.1400        18
    76.1600        12
    76.1800        12
    76.2000        12
    76.2200        16
    76.2400         8
    76.2600        22
    76.2800        10
    76.3000        10
    76.3200        16
    76.3400        20
    76.3600        12
    76.3800        22
    76.4000        12
    76.4200        14
    76.4400         8
    76.4600        12
    76.4800        20
    76.5000        16
    76.5200        14
    76.5400         8
    76.5600        14
    76.5800        14
    76.6000        10
    76.6200        16
    76.6400         8
    76.6600        12
    76.6800        10
    76.7000        14
    76.7200        14
    76.7400         8
    76.7600        12
    76.7800        14
    76.8000        18
    76.8200        18
    76.8400        10
    76.8600        16
    76.8800         8
    76.9000        14
    76.9200        12
    76.9400        10
    76.9600        16
    76.9800        14
    77.0000        10
    77.0200         8
    77.0400        12
    77.0600        10
    77.0800         8
    77.1000        20
    77.1200        10
    77.1400        22
    77.1600        20
    77.1800        22
    77.2000        12
    77.2200        20
    77.2400        16
    77.2600        12
    77.2800         6
    77.3000        10
    77.3200        12
    77.3400        12
    77.3600        10
    77.3800        14
    77.4000        18
    77.4200        16
    77.4400        18
    77.4600        18
    77.4800        20
    77.5000        20
    77.5200        12
    77.5400        22
    77.5600        20
    77.5800        18
    77.6000        18
    77.6200        20
    77.6400        24
    77.6600        10
    77.6800        30
    77.7000        16
    77.7200        24
    77.7400        28
    77.7600        26
    77.7800        38
    77.8000        24
    77.8200        24
    77.8400        22
    77.8600        40
    77.8800        32
    77.9000        46
    77.9200        38
    77.9400        30
    77.9600        36
    77.9800        60
    78.0000        48
    78.0200        46
    78.0400        44
    78.0600        56
    78.0800        50
    78.1000        64
    78.1200        52
    78.1400        76
    78.1600        58
    78.1800        52
    78.2000        68
    78.2200        62
    78.2400        44
    78.2600        46
    78.2800        70
    78.3000        46
    78.3200        46
    78.3400        40
    78.3600        52
    78.3800        30
    78.4000        36
    78.4200        44
    78.4400        48
    78.4600        30
    78.4800        32
    78.5000        28
    78.5200        30
    78.5400        30
    78.5600        30
    78.5800        18
    78.6000        20
    78.6200        24
    78.6400        22
    78.6600        28
    78.6800        20
    78.7000        22
    78.7200        18
    78.7400        26
    78.7600        20
    78.7800        28
    78.8000        22
    78.8200        30
    78.8400        30
    78.8600        24
    78.8800        20
    78.9000        16
    78.9200        24
    78.9400        14
    78.9600        20
    78.9800        18
    79.0000        16
    79.0200        20
    79.0400        18
    79.0600        16
    79.0800        22
    79.1000        12
    79.1200        12
    79.1400        12
    79.1600        16
    79.1800        16
    79.2000        20
    79.2200        18
    79.2400        12
    79.2600        20
    79.2800        16
    79.3000        20
    79.3200        12
    79.3400         8
    79.3600         8
    79.3800        18
    79.4000        14
    79.4200        12
    79.4400         4
    79.4600        10
    79.4800        12
    79.5000        18
    79.5200        10
    79.5400        18
    79.5600        12
    79.5800         6
    79.6000         8
    79.6200         8
    79.6400         8
    79.6600        10
    79.6800        10
    79.7000        14
    79.7200        10
    79.7400        14
    79.7600         8
    79.7800        16
    79.8000        12
    79.8200         8
    79.8400        16
    79.8600        16
    79.8800        10
    79.9000        12
    79.9200        14
    79.9400        12
    79.9600        10
    79.9800         8
    80.0000        14
    80.0200        14
    80.0400        14
    80.0600        10
    80.0800         8
    80.1000         8
    80.1200        16
    80.1400        12
    80.1600        16
    80.1800         8
    80.2000         8
    80.2200         8
    80.2400        14
    80.2600        12
    80.2800         8
    80.3000        10
    80.3200         8
    80.3400         8
    80.3600        10
    80.3800        12
    80.4000        10
    80.4200        12
    80.4400        12
    80.4600        10
    80.4800        12
    80.5000        22
    80.5200        14
    80.5400        14
    80.5600        10
    80.5800         8
    80.6000        14
    80.6200         8
    80.6400        12
    80.6600         8
    80.6800        14
    80.7000         6
    80.7200        10
    80.7400        10
    80.7600        22
    80.7800         6
    80.8000        16
    80.8200         4
    80.8400        16
    80.8600         6
    80.8800        10
    80.9000        10
    80.9200         8
    80.9400        12
    80.9600        14
    80.9800        16
    81.0000        10
    81.0200        14
    81.0400        14
    81.0600        10
    81.0800        16
    81.1000        14
    81.1200        10
    81.1400         6
    81.1600        10
    81.1800         8
    81.2000        14
    81.2200        18
    81.2400        14
    81.2600        16
    81.2800        18
    81.3000        10
    81.3200        16
    81.3400        12
    81.3600        12
    81.3800        10
    81.4000        14
    81.4200        20
    81.4400        18
    81.4600        16
    81.4800         8
    81.5000        14
    81.5200        12
    81.5400         8
    81.5600        12
    81.5800        12
    81.6000        14
    81.6200        16
    81.6400        12
    81.6600         6
    81.6800        10
    81.7000        18
    81.7200        10
    81.7400        20
    81.7600        20
    81.7800        12
    81.8000        16
    81.8200        16
    81.8400        16
    81.8600        16
    81.8800        20
    81.9000        12
    81.9200        14
    81.9400        18
    81.9600        14
    81.9800        24
    82.0000        26
    82.0200        22
    82.0400        26
    82.0600        20
    82.0800        22
    82.1000        24
    82.1200        22
    82.1400        20
    82.1600        24
    82.1800        20
    82.2000        26
    82.2200        24
    82.2400        22
    82.2600        24
    82.2800        24
    82.3000        20
    82.3200        28
    82.3400        26
    82.3600        24
    82.3800        24
    82.4000        28
    82.4200        24
    82.4400        22
    82.4600        28
    82.4800        18
    82.5000        14
    82.5200        22
    82.5400        28
    82.5600        24
    82.5800        12
    82.6000        14
    82.6200        22
    82.6400        20
    82.6600        12
    82.6800        18
    82.7000        14
    82.7200        18
    82.7400        24
    82.7600        14
    82.7800        10
    82.8000        12
    82.8200        14
    82.8400        16
    82.8600        18
    82.8800        10
    82.9000        16
    82.9200        12
    82.9400        10
    82.9600        12
    82.9800        18
    83.0000        10
    83.0200        16
    83.0400        14
    83.0600        10
    83.0800        12
    83.1000         8
    83.1200        16
    83.1400        10
    83.1600        12
    83.1800        12
    83.2000        20
    83.2200        12
    83.2400        10
    83.2600        10
    83.2800         8
    83.3000        10
    83.3200        10
    83.3400        12
    83.3600        12
    83.3800         8
    83.4000        16
    83.4200        12
    83.4400        16
    83.4600        10
    83.4800         8
    83.5000        16
    83.5200        14
    83.5400        12
    83.5600        16
    83.5800        10
    83.6000        12
    83.6200        10
    83.6400        10
    83.6600         6
    83.6800         8
    83.7000        22
    83.7200         8
    83.7400        12
    83.7600         8
    83.7800        18
    83.8000        20
    83.8200         6
    83.8400        10
    83.8600        12
    83.8800         8
    83.9000        10
    83.9200        14
    83.9400        10
    83.9600        12
    83.9800        10
    84.0000         8
    84.0200        14
    84.0400         6
    84.0600        14
    84.0800        12
    84.1000         8
    84.1200         8
    84.1400        10
    84.1600         8
    84.1800        16
    84.2000        10
    84.2200        18
    84.2400        12
    84.2600        10
    84.2800        10
    84.3000        18
    84.3200        16
    84.3400        14
    84.3600        20
    84.3800        18
    84.4000         8
    84.4200        18
    84.4400         8
    84.4600        12
    84.4800         8
    84.5000        16
    84.5200        16
    84.5400         8
    84.5600        16
    84.5800        18
    84.6000        12
    84.6200        14
    84.6400        16
    84.6600        14
    84.6800        14
    84.7000         8
    84.7200        10
    84.7400         4
    84.7600         8
    84.7800        12
    84.8000         6
    84.8200         6
    84.8400         6
    84.8600        10
    84.8800         8
    84.9000         8
    84.9200        10
    84.9400        16
    84.9600        12
    84.9800        12
    85.0000         8
    85.0200        10
    85.0400         6
    85.0600        12
    85.0800        10
    85.1000        10
    85.1200         8
    85.1400        14
    85.1600         8
    85.1800        14
    85.2000        12
    85.2200         8
    85.2400        14
    85.2600         6
    85.2800         4
    85.3000         6
    85.3200        10
    85.3400         2
    85.3600        16
    85.3800        12
    85.4000         4
    85.4200        14
    85.4400        14
    85.4600        10
    85.4800         6
    85.5000        12
    85.5200        10
    85.5400         8
    85.5600         6
    85.5800        12
    85.6000         8
    85.6200        10
    85.6400         8
    85.6600        14
    85.6800         8
    85.7000         8
    85.7200        10
    85.7400        12
    85.7600         6
    85.7800        10
    85.8000        14
    85.8200         6
    85.8400        16
    85.8600         8
    85.8800        14
    85.9000         8
    85.9200         8
    85.9400        14
    85.9600        16
    85.9800         8
    86.0000        16
    86.0200         8
    86.0400        16
    86.0600        12
    86.0800        10
    86.1000        16
    86.1200         8
    86.1400         8
    86.1600         6
    86.1800         8
    86.2000        10
    86.2200         6
    86.2400        10
    86.2600         8
    86.2800        12
    86.3000        10
    86.3200        14
    86.3400         8
    86.3600         4
    86.3800         6
    86.4000         6
    86.4200        14
    86.4400        10
    86.4600        10
    86.4800        22
    86.5000         8
    86.5200        14
    86.5400        18
    86.5600        16
    86.5800        16
    86.6000        10
    86.6200        14
    86.6400         8
    86.6600         8
    86.6800         8
    86.7000        10
    86.7200        10
    86.7400         8
    86.7600        10
    86.7800        16
    86.8000        12
    86.8200        12
    86.8400        14
    86.8600        12
    86.8800        14
    86.9000        16
    86.9200        18
    86.9400        14
    86.9600         8
    86.9800        14
    87.0000        14
    87.0200        16
    87.0400        20
    87.0600        14
    87.0800        18
    87.1000        16
    87.1200        22
    87.1400        16
    87.1600        20
    87.1800        34
    87.2000        26
    87.2200        24
    87.2400        18
    87.2600        26
    87.2800        20
    87.3000        22
    87.3200        16
    87.3400        18
    87.3600        18
    87.3800        28
    87.4000        28
    87.4200        16
    87.4400        20
    87.4600        24
    87.4800        20
    87.5000        18
    87.5200        12
    87.5400        18
    87.5600        18
    87.5800        16
    87.6000        14
    87.6200        26
    87.6400        14
    87.6600        10
    87.6800        14
    87.7000        22
    87.7200        12
    87.7400        12
    87.7600        14
    87.7800        18
    87.8000        12
    87.8200        12
    87.8400        12
    87.8600        12
    87.8800        12
    87.9000         8
    87.9200        14
    87.9400        10
    87.9600        16
    87.9800         8
    88.0000         6
    88.0200         6
    88.0400         6
    88.0600        12
    88.0800        10
    88.1000         8
    88.1200         8
    88.1400        12
    88.1600        14
    88.1800         8
    88.2000        14
    88.2200        12
    88.2400         6
    88.2600         8
    88.2800        10
    88.3000         4
    88.3200         8
    88.3400         8
    88.3600        16
    88.3800         6
    88.4000        16
    88.4200         8
    88.4400         6
    88.4600        10
    88.4800        14
    88.5000         2
    88.5200         8
    88.5400        12
    88.5600         8
    88.5800         6
    88.6000        10
    88.6200         6
    88.6400         4
    88.6600        12
    88.6800         6
    88.7000        10
    88.7200         8
    88.7400         8
    88.7600        12
    88.7800        12
    88.8000         6
    88.8200        12
    88.8400        10
    88.8600        14
    88.8800        12
    88.9000         8
    88.9200         8
    88.9400        10
    88.9600        10
    88.9800        12
    89.0000        10
    89.0200         6
    89.0400        10
    89.0600        12
    89.0800        10
    89.1000         4
    89.1200        10
    89.1400         6
    89.1600         6
    89.1800         8
    89.2000         8
    89.2200         8
    89.2400         4
    89.2600         8
    89.2800         8
    89.3000        14
    89.3200        10
    89.3400        18
    89.3600         6
    89.3800        18
    89.4000         6
    89.4200         8
    89.4400        10
    89.4600        12
    89.4800         4
    89.5000         8
    89.5200         8
    89.5400         6
    89.5600         8
    89.5800        10
    89.6000         6
    89.6200        12
    89.6400         8
    89.6600        10
    89.6800         8
    89.7000         8
    89.7200        12
    89.7400        10
    89.7600        14
    89.7800         4
    89.8000         8
    89.8200        12
    89.8400        10
    89.8600        10
    89.8800        14
    89.9000        16
    89.9200        16
    89.9400        10
    89.9600        14
    89.9800        10
    90.0000        12
